[
  [
    {
      "trial": "0",
      "id": "123456",
      "finalScore": "16",
      "cueprobID": "20",
      "seqID": "0",
      "action": "Correct",
      "decision": "1",
      "responseTime": "4780",
      "CuesL": "0",
      "CuesR": "15",
      "Phase": 1
    },
    {
      "trial": "1",
      "id": "123456",
      "finalScore": "16",
      "cueprobID": "20",
      "seqID": "0",
      "action": "Correct",
      "decision": "0",
      "responseTime": "1004",
      "CuesL": "14",
      "CuesR": "1",
      "Phase": 1
    },
    {
      "trial": "2",
      "id": "123456",
      "finalScore": "16",
      "cueprobID": "20",
      "seqID": "0",
      "action": "Incorrect",
      "decision": "1",
      "responseTime": "977",
      "CuesL": "8",
      "CuesR": "4",
      "Phase": 1
    },
    {
      "trial": "3",
      "id": "123456",
      "finalScore": "16",
      "cueprobID": "20",
      "seqID": "0",
      "action": "TimeOut",
      "decision": "TimeOut",
      "responseTime": "15000",
      "CuesL": "0",
      "CuesR": "15",
      "Phase": 1
    },
    {
      "trial": "4",
      "id": "123456",
      "finalScore": "16",
      "cueprobID": "20",
      "seqID": "0",
      "action": "WrongButton",
      "decision": "WrongButton",
      "responseTime": "1638",
      "CuesL": "14",
      "CuesR": "1",
      "Phase": 1
    },
    {
      "trial": "5",
      "id": "123456",
      "finalScore": "16",
      "cueprobID": "20",
      "seqID": "0",
      "action": "Incorrect",
      "decision": "1",
      "responseTime": "2085",
      "CuesL": "8",
      "CuesR": "4",
      "Phase": 1
    },
    {
      "trial": "6",
      "id": "123456",
      "finalScore": "16",
      "cueprobID": "20",
      "seqID": "0",
      "action": "Incorrect",
      "decision": "0",
      "responseTime": "295",
      "CuesL": "0",
      "CuesR": "15",
      "Phase": 1
    },
    {
      "trial": "7",
      "id": "123456",
      "finalScore": "16",
      "cueprobID": "20",
      "seqID": "0",
      "action": "Incorrect",
      "decision": "1",
      "responseTime": "243",
      "CuesL": "14",
      "CuesR": "1",
      "Phase": 1
    },
    {
      "trial": "8",
      "id": "123456",
      "finalScore": "16",
      "cueprobID": "20",
      "seqID": "0",
      "action": "Correct",
      "decision": "0",
      "responseTime": "669",
      "CuesL": "8",
      "CuesR": "4",
      "Phase": 1
    },
    {
      "trial": "9",
      "id": "123456",
      "finalScore": "16",
      "cueprobID": "20",
      "seqID": "0",
      "action": "Correct",
      "decision": "1",
      "responseTime": "516",
      "CuesL": "0",
      "CuesR": "15",
      "Phase": 1
    },
    {
      "trial": "10",
      "id": "123456",
      "finalScore": "16",
      "cueprobID": "20",
      "seqID": "0",
      "action": "Correct",
      "decision": "0",
      "responseTime": "237",
      "CuesL": "14",
      "CuesR": "1",
      "Phase": 1
    },
    {
      "trial": "11",
      "id": "123456",
      "finalScore": "16",
      "cueprobID": "20",
      "seqID": "0",
      "action": "Incorrect",
      "decision": "1",
      "responseTime": "550",
      "CuesL": "8",
      "CuesR": "4",
      "Phase": 1
    }
  ],
  [
    {
      "trial": "12",
      "id": "123456",
      "finalScore": "16",
      "cueprobID": "20",
      "seqID": "0",
      "action": "Correct",
      "decision": "1",
      "responseTime": "3682",
      "CuesL": "0",
      "CuesR": "2",
      "Phase": 2
    },
    {
      "trial": "13",
      "id": "123456",
      "finalScore": "16",
      "cueprobID": "20",
      "seqID": "0",
      "action": "Correct",
      "decision": "0",
      "responseTime": "1057",
      "CuesL": "2",
      "CuesR": "5",
      "Phase": 2
    },
    {
      "trial": "14",
      "id": "123456",
      "finalScore": "16",
      "cueprobID": "20",
      "seqID": "0",
      "action": "Incorrect",
      "decision": "1",
      "responseTime": "425",
      "CuesL": "6",
      "CuesR": "7",
      "Phase": 2
    },
    {
      "trial": "15",
      "id": "123456",
      "finalScore": "16",
      "cueprobID": "20",
      "seqID": "0",
      "action": "Incorrect",
      "decision": "0",
      "responseTime": "2354",
      "CuesL": "4",
      "CuesR": "14",
      "Phase": 2
    },
    {
      "trial": "16",
      "id": "123456",
      "finalScore": "16",
      "cueprobID": "20",
      "seqID": "0",
      "action": "Incorrect",
      "decision": "1",
      "responseTime": "338",
      "CuesL": "3",
      "CuesR": "7",
      "Phase": 2
    },
    {
      "trial": "17",
      "id": "123456",
      "finalScore": "16",
      "cueprobID": "20",
      "seqID": "0",
      "action": "Incorrect",
      "decision": "0",
      "responseTime": "285",
      "CuesL": "15",
      "CuesR": "10",
      "Phase": 2
    },
    {
      "trial": "18",
      "id": "123456",
      "finalScore": "16",
      "cueprobID": "20",
      "seqID": "0",
      "action": "Correct",
      "decision": "1",
      "responseTime": "902",
      "CuesL": "15",
      "CuesR": "6",
      "Phase": 2
    },
    {
      "trial": "19",
      "id": "123456",
      "finalScore": "16",
      "cueprobID": "20",
      "seqID": "0",
      "action": "Incorrect",
      "decision": "0",
      "responseTime": "1004",
      "CuesL": "11",
      "CuesR": "13",
      "Phase": 2
    },
    {
      "trial": "20",
      "id": "123456",
      "finalScore": "16",
      "cueprobID": "20",
      "seqID": "0",
      "action": "Incorrect",
      "decision": "1",
      "responseTime": "460",
      "CuesL": "4",
      "CuesR": "6",
      "Phase": 2
    },
    {
      "trial": "21",
      "id": "123456",
      "finalScore": "16",
      "cueprobID": "20",
      "seqID": "0",
      "action": "Incorrect",
      "decision": "0",
      "responseTime": "383",
      "CuesL": "2",
      "CuesR": "12",
      "Phase": 2
    },
    {
      "trial": "22",
      "id": "123456",
      "finalScore": "16",
      "cueprobID": "20",
      "seqID": "0",
      "action": "Correct",
      "decision": "1",
      "responseTime": "394",
      "CuesL": "2",
      "CuesR": "4",
      "Phase": 2
    },
    {
      "trial": "23",
      "id": "123456",
      "finalScore": "16",
      "cueprobID": "20",
      "seqID": "0",
      "action": "Incorrect",
      "decision": "0",
      "responseTime": "779",
      "CuesL": "15",
      "CuesR": "7",
      "Phase": 2
    }
  ],
  [
    {
      "trial": "24",
      "id": "123456",
      "finalScore": "16",
      "cueprobID": "20",
      "seqID": "0",
      "action": "Correct",
      "decision": "1",
      "responseTime": "6869",
      "CuesL": "4",
      "CuesR": "13",
      "Phase": 3
    },
    {
      "trial": "25",
      "id": "123456",
      "finalScore": "16",
      "cueprobID": "20",
      "seqID": "0",
      "action": "Correct",
      "decision": "0",
      "responseTime": "7630",
      "CuesL": "7",
      "CuesR": "12",
      "Phase": 3
    },
    {
      "trial": "26",
      "id": "123456",
      "finalScore": "16",
      "cueprobID": "20",
      "seqID": "0",
      "action": "Correct",
      "decision": "1",
      "responseTime": "2402",
      "CuesL": "3",
      "CuesR": "7",
      "Phase": 3
    },
    {
      "trial": "27",
      "id": "123456",
      "finalScore": "16",
      "cueprobID": "20",
      "seqID": "0",
      "action": "Incorrect",
      "decision": "0",
      "responseTime": "899",
      "CuesL": "15",
      "CuesR": "4",
      "Phase": 3
    },
    {
      "trial": "28",
      "id": "123456",
      "finalScore": "16",
      "cueprobID": "20",
      "seqID": "0",
      "action": "Correct",
      "decision": "1",
      "responseTime": "262",
      "CuesL": "4",
      "CuesR": "7",
      "Phase": 3
    },
    {
      "trial": "29",
      "id": "123456",
      "finalScore": "16",
      "cueprobID": "20",
      "seqID": "0",
      "action": "Incorrect",
      "decision": "0",
      "responseTime": "378",
      "CuesL": "5",
      "CuesR": "1",
      "Phase": 3
    },
    {
      "trial": "30",
      "id": "123456",
      "finalScore": "16",
      "cueprobID": "20",
      "seqID": "0",
      "action": "Correct",
      "decision": "1",
      "responseTime": "1016",
      "CuesL": "15",
      "CuesR": "5",
      "Phase": 3
    },
    {
      "trial": "31",
      "id": "123456",
      "finalScore": "16",
      "cueprobID": "20",
      "seqID": "0",
      "action": "Correct",
      "decision": "1",
      "responseTime": "980",
      "CuesL": "2",
      "CuesR": "8",
      "Phase": 3
    },
    {
      "trial": "32",
      "id": "123456",
      "finalScore": "16",
      "cueprobID": "20",
      "seqID": "0",
      "action": "Incorrect",
      "decision": "0",
      "responseTime": "516",
      "CuesL": "11",
      "CuesR": "5",
      "Phase": 3
    },
    {
      "trial": "33",
      "id": "123456",
      "finalScore": "16",
      "cueprobID": "20",
      "seqID": "0",
      "action": "Incorrect",
      "decision": "0",
      "responseTime": "404",
      "CuesL": "8",
      "CuesR": "5",
      "Phase": 3
    },
    {
      "trial": "34",
      "id": "123456",
      "finalScore": "16",
      "cueprobID": "20",
      "seqID": "0",
      "action": "Correct",
      "decision": "1",
      "responseTime": "711",
      "CuesL": "7",
      "CuesR": "5",
      "Phase": 3
    },
    {
      "trial": "35",
      "id": "123456",
      "finalScore": "16",
      "cueprobID": "20",
      "seqID": "0",
      "action": "Incorrect",
      "decision": "0",
      "responseTime": "1247",
      "CuesL": "2",
      "CuesR": "6",
      "Phase": 3
    }
  ]
]