[
  [
    {
      "trial": "0",
      "id": "1111",
      "finalScore": "11",
      "cueprobID": "20",
      "seqID": "0",
      "action": "Correct",
      "decision": "1",
      "responseTime": "243",
      "CuesL": "0",
      "CuesR": "15",
      "Phase": 1
    },
    {
      "trial": "1",
      "id": "1111",
      "finalScore": "11",
      "cueprobID": "20",
      "seqID": "0",
      "action": "Incorrect",
      "decision": "1",
      "responseTime": "950",
      "CuesL": "14",
      "CuesR": "1",
      "Phase": 1
    },
    {
      "trial": "2",
      "id": "1111",
      "finalScore": "11",
      "cueprobID": "20",
      "seqID": "0",
      "action": "Incorrect",
      "decision": "1",
      "responseTime": "6033",
      "CuesL": "8",
      "CuesR": "4",
      "Phase": 1
    },
    {
      "trial": "3",
      "id": "1111",
      "finalScore": "11",
      "cueprobID": "20",
      "seqID": "0",
      "action": "Correct",
      "decision": "1",
      "responseTime": "5537",
      "CuesL": "0",
      "CuesR": "15",
      "Phase": 1
    },
    {
      "trial": "4",
      "id": "1111",
      "finalScore": "11",
      "cueprobID": "20",
      "seqID": "0",
      "action": "Incorrect",
      "decision": "1",
      "responseTime": "277",
      "CuesL": "14",
      "CuesR": "1",
      "Phase": 1
    },
    {
      "trial": "5",
      "id": "1111",
      "finalScore": "11",
      "cueprobID": "20",
      "seqID": "0",
      "action": "Incorrect",
      "decision": "1",
      "responseTime": "777",
      "CuesL": "8",
      "CuesR": "4",
      "Phase": 1
    },
    {
      "trial": "6",
      "id": "1111",
      "finalScore": "11",
      "cueprobID": "20",
      "seqID": "0",
      "action": "Correct",
      "decision": "1",
      "responseTime": "256",
      "CuesL": "0",
      "CuesR": "15",
      "Phase": 1
    },
    {
      "trial": "7",
      "id": "1111",
      "finalScore": "11",
      "cueprobID": "20",
      "seqID": "0",
      "action": "Incorrect",
      "decision": "1",
      "responseTime": "435",
      "CuesL": "14",
      "CuesR": "1",
      "Phase": 1
    },
    {
      "trial": "8",
      "id": "1111",
      "finalScore": "11",
      "cueprobID": "20",
      "seqID": "0",
      "action": "Incorrect",
      "decision": "1",
      "responseTime": "437",
      "CuesL": "8",
      "CuesR": "4",
      "Phase": 1
    },
    {
      "trial": "9",
      "id": "1111",
      "finalScore": "11",
      "cueprobID": "20",
      "seqID": "0",
      "action": "Correct",
      "decision": "1",
      "responseTime": "364",
      "CuesL": "0",
      "CuesR": "15",
      "Phase": 1
    },
    {
      "trial": "10",
      "id": "1111",
      "finalScore": "11",
      "cueprobID": "20",
      "seqID": "0",
      "action": "Incorrect",
      "decision": "1",
      "responseTime": "480",
      "CuesL": "14",
      "CuesR": "1",
      "Phase": 1
    },
    {
      "trial": "11",
      "id": "1111",
      "finalScore": "11",
      "cueprobID": "20",
      "seqID": "0",
      "action": "Incorrect",
      "decision": "1",
      "responseTime": "545",
      "CuesL": "8",
      "CuesR": "4",
      "Phase": 1
    }
  ],
  [
    {
      "trial": "12",
      "id": "1111",
      "finalScore": "11",
      "cueprobID": "20",
      "seqID": "0",
      "action": "Correct",
      "decision": "1",
      "responseTime": "318",
      "CuesL": "0",
      "CuesR": "2",
      "Phase": 2
    },
    {
      "trial": "13",
      "id": "1111",
      "finalScore": "11",
      "cueprobID": "20",
      "seqID": "0",
      "action": "Incorrect",
      "decision": "1",
      "responseTime": "258",
      "CuesL": "2",
      "CuesR": "5",
      "Phase": 2
    },
    {
      "trial": "14",
      "id": "1111",
      "finalScore": "11",
      "cueprobID": "20",
      "seqID": "0",
      "action": "Incorrect",
      "decision": "1",
      "responseTime": "294",
      "CuesL": "6",
      "CuesR": "7",
      "Phase": 2
    },
    {
      "trial": "15",
      "id": "1111",
      "finalScore": "11",
      "cueprobID": "20",
      "seqID": "0",
      "action": "Correct",
      "decision": "1",
      "responseTime": "427",
      "CuesL": "4",
      "CuesR": "14",
      "Phase": 2
    },
    {
      "trial": "16",
      "id": "1111",
      "finalScore": "11",
      "cueprobID": "20",
      "seqID": "0",
      "action": "Incorrect",
      "decision": "1",
      "responseTime": "663",
      "CuesL": "3",
      "CuesR": "7",
      "Phase": 2
    },
    {
      "trial": "17",
      "id": "1111",
      "finalScore": "11",
      "cueprobID": "20",
      "seqID": "0",
      "action": "Incorrect",
      "decision": "1",
      "responseTime": "443",
      "CuesL": "15",
      "CuesR": "10",
      "Phase": 2
    },
    {
      "trial": "18",
      "id": "1111",
      "finalScore": "11",
      "cueprobID": "20",
      "seqID": "0",
      "action": "Correct",
      "decision": "1",
      "responseTime": "766",
      "CuesL": "15",
      "CuesR": "6",
      "Phase": 2
    },
    {
      "trial": "19",
      "id": "1111",
      "finalScore": "11",
      "cueprobID": "20",
      "seqID": "0",
      "action": "Incorrect",
      "decision": "1",
      "responseTime": "608",
      "CuesL": "11",
      "CuesR": "13",
      "Phase": 2
    },
    {
      "trial": "20",
      "id": "1111",
      "finalScore": "11",
      "cueprobID": "20",
      "seqID": "0",
      "action": "Incorrect",
      "decision": "1",
      "responseTime": "321",
      "CuesL": "4",
      "CuesR": "6",
      "Phase": 2
    },
    {
      "trial": "21",
      "id": "1111",
      "finalScore": "11",
      "cueprobID": "20",
      "seqID": "0",
      "action": "Incorrect",
      "decision": "1",
      "responseTime": "727",
      "CuesL": "2",
      "CuesR": "12",
      "Phase": 2
    },
    {
      "trial": "22",
      "id": "1111",
      "finalScore": "11",
      "cueprobID": "20",
      "seqID": "0",
      "action": "Correct",
      "decision": "1",
      "responseTime": "433",
      "CuesL": "2",
      "CuesR": "4",
      "Phase": 2
    },
    {
      "trial": "23",
      "id": "1111",
      "finalScore": "11",
      "cueprobID": "20",
      "seqID": "0",
      "action": "Correct",
      "decision": "1",
      "responseTime": "375",
      "CuesL": "15",
      "CuesR": "7",
      "Phase": 2
    }
  ],
  [
    {
      "trial": "24",
      "id": "1111",
      "finalScore": "11",
      "cueprobID": "20",
      "seqID": "0",
      "action": "Incorrect",
      "decision": "0",
      "responseTime": "341",
      "CuesL": "0",
      "CuesR": "3",
      "Phase": 3
    },
    {
      "trial": "25",
      "id": "1111",
      "finalScore": "11",
      "cueprobID": "20",
      "seqID": "0",
      "action": "Incorrect",
      "decision": "0",
      "responseTime": "266",
      "CuesL": "9",
      "CuesR": "12",
      "Phase": 3
    },
    {
      "trial": "26",
      "id": "1111",
      "finalScore": "11",
      "cueprobID": "20",
      "seqID": "0",
      "action": "Incorrect",
      "decision": "0",
      "responseTime": "385",
      "CuesL": "11",
      "CuesR": "7",
      "Phase": 3
    },
    {
      "trial": "27",
      "id": "1111",
      "finalScore": "11",
      "cueprobID": "20",
      "seqID": "0",
      "action": "Incorrect",
      "decision": "0",
      "responseTime": "235",
      "CuesL": "4",
      "CuesR": "6",
      "Phase": 3
    },
    {
      "trial": "28",
      "id": "1111",
      "finalScore": "11",
      "cueprobID": "20",
      "seqID": "0",
      "action": "Incorrect",
      "decision": "0",
      "responseTime": "361",
      "CuesL": "7",
      "CuesR": "10",
      "Phase": 3
    },
    {
      "trial": "29",
      "id": "1111",
      "finalScore": "11",
      "cueprobID": "20",
      "seqID": "0",
      "action": "Correct",
      "decision": "1",
      "responseTime": "400",
      "CuesL": "0",
      "CuesR": "2",
      "Phase": 3
    },
    {
      "trial": "30",
      "id": "1111",
      "finalScore": "11",
      "cueprobID": "20",
      "seqID": "0",
      "action": "Incorrect",
      "decision": "0",
      "responseTime": "415",
      "CuesL": "3",
      "CuesR": "12",
      "Phase": 3
    },
    {
      "trial": "31",
      "id": "1111",
      "finalScore": "11",
      "cueprobID": "20",
      "seqID": "0",
      "action": "Incorrect",
      "decision": "0",
      "responseTime": "397",
      "CuesL": "11",
      "CuesR": "5",
      "Phase": 3
    },
    {
      "trial": "32",
      "id": "1111",
      "finalScore": "11",
      "cueprobID": "20",
      "seqID": "0",
      "action": "Incorrect",
      "decision": "0",
      "responseTime": "251",
      "CuesL": "2",
      "CuesR": "9",
      "Phase": 3
    },
    {
      "trial": "33",
      "id": "1111",
      "finalScore": "11",
      "cueprobID": "20",
      "seqID": "0",
      "action": "Correct",
      "decision": "1",
      "responseTime": "368",
      "CuesL": "0",
      "CuesR": "6",
      "Phase": 3
    },
    {
      "trial": "34",
      "id": "1111",
      "finalScore": "11",
      "cueprobID": "20",
      "seqID": "0",
      "action": "Incorrect",
      "decision": "0",
      "responseTime": "348",
      "CuesL": "6",
      "CuesR": "13",
      "Phase": 3
    },
    {
      "trial": "35",
      "id": "1111",
      "finalScore": "11",
      "cueprobID": "20",
      "seqID": "0",
      "action": "Incorrect",
      "decision": "0",
      "responseTime": "427",
      "CuesL": "11",
      "CuesR": "6",
      "Phase": 3
    }
  ]
]