[
  [
    {
      "trial": 0,
      "id": "123456",
      "finalScore": "19",
      "cueprobID": "10",
      "seqID": "1",
      "action": "Correct",
      "decision": "1",
      "responseTime": 428,
      "CuesL": 0,
      "CuesR": 15,
      "Phase": 1
    },
    {
      "trial": 1,
      "id": "123456",
      "finalScore": "19",
      "cueprobID": "10",
      "seqID": "1",
      "action": "Correct",
      "decision": "0",
      "responseTime": 323,
      "CuesL": 14,
      "CuesR": 1,
      "Phase": 1
    },
    {
      "trial": 2,
      "id": "123456",
      "finalScore": "19",
      "cueprobID": "10",
      "seqID": "1",
      "action": "Incorrect",
      "decision": "1",
      "responseTime": 321,
      "CuesL": 8,
      "CuesR": 4,
      "Phase": 1
    },
    {
      "trial": 3,
      "id": "123456",
      "finalScore": "19",
      "cueprobID": "10",
      "seqID": "1",
      "action": "Incorrect",
      "decision": "0",
      "responseTime": 345,
      "CuesL": 0,
      "CuesR": 15,
      "Phase": 1
    },
    {
      "trial": 4,
      "id": "123456",
      "finalScore": "19",
      "cueprobID": "10",
      "seqID": "1",
      "action": "Incorrect",
      "decision": "1",
      "responseTime": 349,
      "CuesL": 14,
      "CuesR": 1,
      "Phase": 1
    },
    {
      "trial": 5,
      "id": "123456",
      "finalScore": "19",
      "cueprobID": "10",
      "seqID": "1",
      "action": "Correct",
      "decision": "0",
      "responseTime": 430,
      "CuesL": 8,
      "CuesR": 4,
      "Phase": 1
    },
    {
      "trial": 6,
      "id": "123456",
      "finalScore": "19",
      "cueprobID": "10",
      "seqID": "1",
      "action": "Correct",
      "decision": "1",
      "responseTime": 278,
      "CuesL": 0,
      "CuesR": 15,
      "Phase": 1
    },
    {
      "trial": 7,
      "id": "123456",
      "finalScore": "19",
      "cueprobID": "10",
      "seqID": "1",
      "action": "Correct",
      "decision": "0",
      "responseTime": 287,
      "CuesL": 14,
      "CuesR": 1,
      "Phase": 1
    },
    {
      "trial": 8,
      "id": "123456",
      "finalScore": "19",
      "cueprobID": "10",
      "seqID": "1",
      "action": "Incorrect",
      "decision": "1",
      "responseTime": 376,
      "CuesL": 8,
      "CuesR": 4,
      "Phase": 1
    },
    {
      "trial": 9,
      "id": "123456",
      "finalScore": "19",
      "cueprobID": "10",
      "seqID": "1",
      "action": "Incorrect",
      "decision": "0",
      "responseTime": 298,
      "CuesL": 0,
      "CuesR": 15,
      "Phase": 1
    },
    {
      "trial": 10,
      "id": "123456",
      "finalScore": "19",
      "cueprobID": "10",
      "seqID": "1",
      "action": "Incorrect",
      "decision": "1",
      "responseTime": 242,
      "CuesL": 14,
      "CuesR": 1,
      "Phase": 1
    },
    {
      "trial": 11,
      "id": "123456",
      "finalScore": "19",
      "cueprobID": "10",
      "seqID": "1",
      "action": "Correct",
      "decision": "0",
      "responseTime": 297,
      "CuesL": 8,
      "CuesR": 4,
      "Phase": 1
    }
  ],
  [
    {
      "trial": 12,
      "id": "123456",
      "finalScore": "19",
      "cueprobID": "10",
      "seqID": "1",
      "action": "Correct",
      "decision": "1",
      "responseTime": 313,
      "CuesL": 7,
      "CuesR": 14,
      "Phase": 2
    },
    {
      "trial": 13,
      "id": "123456",
      "finalScore": "19",
      "cueprobID": "10",
      "seqID": "1",
      "action": "Correct",
      "decision": "0",
      "responseTime": 481,
      "CuesL": 9,
      "CuesR": 13,
      "Phase": 2
    },
    {
      "trial": 14,
      "id": "123456",
      "finalScore": "19",
      "cueprobID": "10",
      "seqID": "1",
      "action": "Correct",
      "decision": "0",
      "responseTime": 360,
      "CuesL": 4,
      "CuesR": 9,
      "Phase": 2
    },
    {
      "trial": 15,
      "id": "123456",
      "finalScore": "19",
      "cueprobID": "10",
      "seqID": "1",
      "action": "Incorrect",
      "decision": "1",
      "responseTime": 278,
      "CuesL": 6,
      "CuesR": 10,
      "Phase": 2
    },
    {
      "trial": 16,
      "id": "123456",
      "finalScore": "19",
      "cueprobID": "10",
      "seqID": "1",
      "action": "Correct",
      "decision": "0",
      "responseTime": 519,
      "CuesL": 8,
      "CuesR": 1,
      "Phase": 2
    },
    {
      "trial": 17,
      "id": "123456",
      "finalScore": "19",
      "cueprobID": "10",
      "seqID": "1",
      "action": "Incorrect",
      "decision": "1",
      "responseTime": 338,
      "CuesL": 0,
      "CuesR": 10,
      "Phase": 2
    },
    {
      "trial": 18,
      "id": "123456",
      "finalScore": "19",
      "cueprobID": "10",
      "seqID": "1",
      "action": "Incorrect",
      "decision": "0",
      "responseTime": 281,
      "CuesL": 11,
      "CuesR": 6,
      "Phase": 2
    },
    {
      "trial": 19,
      "id": "123456",
      "finalScore": "19",
      "cueprobID": "10",
      "seqID": "1",
      "action": "Incorrect",
      "decision": "1",
      "responseTime": 314,
      "CuesL": 13,
      "CuesR": 14,
      "Phase": 2
    },
    {
      "trial": 20,
      "id": "123456",
      "finalScore": "19",
      "cueprobID": "10",
      "seqID": "1",
      "action": "Correct",
      "decision": "0",
      "responseTime": 392,
      "CuesL": 3,
      "CuesR": 9,
      "Phase": 2
    },
    {
      "trial": 21,
      "id": "123456",
      "finalScore": "19",
      "cueprobID": "10",
      "seqID": "1",
      "action": "Incorrect",
      "decision": "1",
      "responseTime": 271,
      "CuesL": 12,
      "CuesR": 1,
      "Phase": 2
    },
    {
      "trial": 22,
      "id": "123456",
      "finalScore": "19",
      "cueprobID": "10",
      "seqID": "1",
      "action": "Correct",
      "decision": "0",
      "responseTime": 371,
      "CuesL": 6,
      "CuesR": 1,
      "Phase": 2
    },
    {
      "trial": 23,
      "id": "123456",
      "finalScore": "19",
      "cueprobID": "10",
      "seqID": "1",
      "action": "Correct",
      "decision": "1",
      "responseTime": 366,
      "CuesL": 5,
      "CuesR": 13,
      "Phase": 2
    }
  ],
  [
    {
      "trial": 24,
      "id": "123456",
      "finalScore": "19",
      "cueprobID": "10",
      "seqID": "1",
      "action": "Correct",
      "decision": "0",
      "responseTime": 369,
      "CuesL": 2,
      "CuesR": 14,
      "Phase": 3
    },
    {
      "trial": 25,
      "id": "123456",
      "finalScore": "19",
      "cueprobID": "10",
      "seqID": "1",
      "action": "Incorrect",
      "decision": "0",
      "responseTime": 315,
      "CuesL": 4,
      "CuesR": 14,
      "Phase": 3
    },
    {
      "trial": 26,
      "id": "123456",
      "finalScore": "19",
      "cueprobID": "10",
      "seqID": "1",
      "action": "Correct",
      "decision": "0",
      "responseTime": 299,
      "CuesL": 11,
      "CuesR": 8,
      "Phase": 3
    },
    {
      "trial": 27,
      "id": "123456",
      "finalScore": "19",
      "cueprobID": "10",
      "seqID": "1",
      "action": "Incorrect",
      "decision": "0",
      "responseTime": 282,
      "CuesL": 15,
      "CuesR": 4,
      "Phase": 3
    },
    {
      "trial": 28,
      "id": "123456",
      "finalScore": "19",
      "cueprobID": "10",
      "seqID": "1",
      "action": "Correct",
      "decision": "0",
      "responseTime": 236,
      "CuesL": 9,
      "CuesR": 10,
      "Phase": 3
    },
    {
      "trial": 29,
      "id": "123456",
      "finalScore": "19",
      "cueprobID": "10",
      "seqID": "1",
      "action": "Incorrect",
      "decision": "0",
      "responseTime": 309,
      "CuesL": 0,
      "CuesR": 9,
      "Phase": 3
    },
    {
      "trial": 30,
      "id": "123456",
      "finalScore": "19",
      "cueprobID": "10",
      "seqID": "1",
      "action": "Correct",
      "decision": "0",
      "responseTime": 287,
      "CuesL": 3,
      "CuesR": 6,
      "Phase": 3
    },
    {
      "trial": 31,
      "id": "123456",
      "finalScore": "19",
      "cueprobID": "10",
      "seqID": "1",
      "action": "Incorrect",
      "decision": "0",
      "responseTime": 333,
      "CuesL": 6,
      "CuesR": 7,
      "Phase": 3
    },
    {
      "trial": 32,
      "id": "123456",
      "finalScore": "19",
      "cueprobID": "10",
      "seqID": "1",
      "action": "Incorrect",
      "decision": "0",
      "responseTime": 352,
      "CuesL": 11,
      "CuesR": 1,
      "Phase": 3
    },
    {
      "trial": 33,
      "id": "123456",
      "finalScore": "19",
      "cueprobID": "10",
      "seqID": "1",
      "action": "Correct",
      "decision": "0",
      "responseTime": 249,
      "CuesL": 4,
      "CuesR": 8,
      "Phase": 3
    },
    {
      "trial": 34,
      "id": "123456",
      "finalScore": "19",
      "cueprobID": "10",
      "seqID": "1",
      "action": "Incorrect",
      "decision": "0",
      "responseTime": 254,
      "CuesL": 10,
      "CuesR": 14,
      "Phase": 3
    },
    {
      "trial": 35,
      "id": "123456",
      "finalScore": "19",
      "cueprobID": "10",
      "seqID": "1",
      "action": "Correct",
      "decision": "0",
      "responseTime": 260,
      "CuesL": 0,
      "CuesR": 1,
      "Phase": 3
    }
  ]
]